{"entry":[{"fullUrl":"urn:uuid:c877c7b8-9f61-11ec-b909-0242ac120000","resource":{"author":[{"identifier":{"system":"http://www.saude.gov.br/fhir/r4/StructureDefinition/BREstabelecimentoSaude-1.0","value":"6156002"}}],"date":"2022-03-04T14:59:51-03:00","meta":{"profile":["http://www.saude.gov.br/fhir/r4/StructureDefinition/BRRegistroPrescricaoMedicamento"]},"resourceType":"Composition","section":[{"entry":[{"reference":"urn:uuid:c877c7b8-9f61-11ec-b909-0242ac120001"}]}],"status":"final","subject":{"identifier":{"system":"http://www.saude.gov.br/fhir/r4/StructureDefinition/BRIndividuo-1.0","value":"712176901347489"}},"text":{"div":"<div xmlns=\"http://www.w3.org/1999/xhtml\">This is a summary of the Composition resource. It includes information about the type of document, the subject, the date, the author, and the title.</div>","status":"generated"},"title":"Registro de Prescrição de Medicamento","type":{"coding":[{"code":"RPM","system":"http://www.saude.gov.br/fhir/r4/CodeSystem/BRTipoDocumento"}]}}},{"fullUrl":"urn:uuid:c877c7b8-9f61-11ec-b909-0242ac120001","resource":{"authoredOn":"2022-03-04","intent":"order","medicationReference":{"reference":"urn:uuid:c877c7b8-9f61-11ec-b909-0242ac120002"},"meta":{"profile":["http://www.saude.gov.br/fhir/r4/StructureDefinition/BRPrescricaoMedicamento"]},"note":[{"authorString":"Dr. Getúlio","text":"Medicamento necessário para tratamento da febre devido à gripe.","time":"2022-03-04"}],"recorder":{"identifier":{"system":"http://www.saude.gov.br/fhir/r4/StructureDefinition/BRProfissional-1.0","value":"162338254590005"}},"requester":{"identifier":{"system":"http://www.saude.gov.br/fhir/r4/StructureDefinition/BREstabelecimentoSaude-1.0","value":"6156002"}},"resourceType":"MedicationRequest","status":"completed","subject":{"identifier":{"system":"http://www.saude.gov.br/fhir/r4/StructureDefinition/BRIndividuo-1.0","value":"712176901347489"}}}},{"fullUrl":"urn:uuid:c877c7b8-9f61-11ec-b909-0242ac120002","resource":{"code":{"coding":[{"code":"BR0352317","system":"http://www.saude.gov.br/fhir/r4/CodeSystem/BRObmCATMAT"}],"text":"Terminologia segundo CATMAT"},"form":{"coding":[{"code":"2","system":"http://www.saude.gov.br/fhir/r4/CodeSystem/BRUnidadeMedida"}]},"meta":{"profile":["http://www.saude.gov.br/fhir/r4/StructureDefinition/BRMedicamento"]},"resourceType":"Medication"}}],"identifier":{"system":"http://www.saude.gov.br/fhir/r4/NamingSystem/BRRNDS-10302910000182A","value":"1234567890"},"resourceType":"Bundle","timestamp":"2022-03-04T14:59:51.244-03:00","type":"document"}